trials.label,trials.startVal,trials.stepSizes,trials.maxVal,trials.minVal,trials.thisIndex,trials.thisRepN,trials.thisN,trials.direction,trials.stepSize,trials.stepType,trials.intensity,ISI.started,grating.started,key_resp.started,grating.stopped,trials.response,key_resp.corr,participant,session,date,expName,psychopyVersion,frameRate,
cont,0.05,"(0.01, 0.01, 0.005, 0.005)",1,0,0,1,0,start,0.01,db,0.05,0.09909720799987554,10.346081083000172,10.346081083000172,10.645323957998698,1,1,245961,001,2022-09-08_20h05.55.594,exp.1,2022.2.4,59.98864726894722,
cont,0.05,"(0.01, 0.01, 0.005, 0.005)",1,0,0,2,1,down,0.01,db,0.04994246849682526,0.0006690409991279012,12.845443166999758,12.845443166999758,13.14510324999901,1,1,245961,001,2022-09-08_20h05.55.594,exp.1,2022.2.4,59.98864726894722,
cont,0.05,"(0.01, 0.01, 0.005, 0.005)",1,0,0,3,2,down,0.01,db,0.049885003191127666,0.0007622920002177125,15.228626082998744,15.228626082998744,15.528693707999992,1,1,245961,001,2022-09-08_20h05.55.594,exp.1,2022.2.4,59.98864726894722,
cont,0.05,"(0.01, 0.01, 0.005, 0.005)",1,0,0,4,3,down,0.01,db,0.04982760400673841,0.0007928329996502725,17.845309582999107,17.845309582999107,18.146199875000093,1,1,245961,001,2022-09-08_20h05.55.594,exp.1,2022.2.4,59.98864726894722,
cont,0.05,"(0.01, 0.01, 0.005, 0.005)",1,0,0,5,4,down,0.01,db,0.04977027086757634,0.0006121660007920582,20.22843366699999,20.22843366699999,20.52853799999866,1,1,245961,001,2022-09-08_20h05.55.594,exp.1,2022.2.4,59.98864726894722,
cont,0.05,"(0.01, 0.01, 0.005, 0.005)",1,0,0,6,5,down,0.01,db,0.04971300369764783,0.0007635000001755543,22.57871087499916,22.57871087499916,22.879392791999635,1,1,245961,001,2022-09-08_20h05.55.594,exp.1,2022.2.4,59.98864726894722,
cont,0.05,"(0.01, 0.01, 0.005, 0.005)",1,0,0,7,6,down,0.01,db,0.04965580242104668,0.0006158750002214219,24.979319291998763,24.979319291998763,25.27899287499895,1,1,245961,001,2022-09-08_20h05.55.594,exp.1,2022.2.4,59.98864726894722,
cont,0.05,"(0.01, 0.01, 0.005, 0.005)",1,0,0,8,7,down,0.01,db,0.049598666961954065,0.000594999999520951,27.345637958000225,27.345637958000225,27.64525254199907,1,1,245961,001,2022-09-08_20h05.55.594,exp.1,2022.2.4,59.98864726894722,
cont,0.05,"(0.01, 0.01, 0.005, 0.005)",1,0,0,9,8,down,0.01,db,0.04954159724463837,0.0007578330005344469,29.729441207999116,29.729441207999116,30.02872345799915,1,1,245961,001,2022-09-08_20h05.55.594,exp.1,2022.2.4,59.98864726894722,
cont,0.05,"(0.01, 0.01, 0.005, 0.005)",1,0,0,10,9,down,0.01,db,0.049484593193455134,0.0007583749993500533,32.095522583000275,32.095522583000275,32.39537529199879,1,1,245961,001,2022-09-08_20h05.55.594,exp.1,2022.2.4,59.98864726894722,
cont,0.05,"(0.01, 0.01, 0.005, 0.005)",1,0,0,11,10,down,0.01,db,0.04942765473284693,0.0007804160013620276,34.61247833299967,34.61247833299967,34.912689832999604,1,1,245961,001,2022-09-08_20h05.55.594,exp.1,2022.2.4,59.98864726894722,
cont,0.05,"(0.01, 0.01, 0.005, 0.005)",1,0,0,12,11,down,0.01,db,0.04937078178734327,0.0007588330008729827,37.046481957999276,37.046481957999276,37.34647304200007,1,1,245961,001,2022-09-08_20h05.55.594,exp.1,2022.2.4,59.98864726894722,
cont,0.05,"(0.01, 0.01, 0.005, 0.005)",1,0,0,13,12,down,0.01,db,0.04931397428156051,0.0006240410002646968,39.529417582998576,39.529417582998576,39.82908491699891,1,1,245961,001,2022-09-08_20h05.55.594,exp.1,2022.2.4,59.98864726894722,
cont,0.05,"(0.01, 0.01, 0.005, 0.005)",1,0,0,14,13,down,0.01,db,0.04925723214020173,0.0006047080005373573,41.92959920799876,41.92959920799876,42.2287710419987,1,1,245961,001,2022-09-08_20h05.55.594,exp.1,2022.2.4,59.98864726894722,
cont,0.05,"(0.01, 0.01, 0.005, 0.005)",1,0,0,15,14,down,0.01,db,0.04920055528805667,0.0005987090007693041,44.34619216699866,44.34619216699866,44.64538149999862,1,1,245961,001,2022-09-08_20h05.55.594,exp.1,2022.2.4,59.98864726894722,
cont,0.05,"(0.01, 0.01, 0.005, 0.005)",1,0,0,16,15,down,0.01,db,0.04914394365000159,0.0007523749991378281,46.67894366699875,46.67894366699875,46.97949204199904,1,1,245961,001,2022-09-08_20h05.55.594,exp.1,2022.2.4,59.98864726894722,
cont,0.05,"(0.01, 0.01, 0.005, 0.005)",1,0,0,17,16,down,0.01,db,0.0490873971509992,0.0006232920004549669,49.12877158300034,49.12877158300034,49.429715832999136,1,1,245961,001,2022-09-08_20h05.55.594,exp.1,2022.2.4,59.98864726894722,
cont,0.05,"(0.01, 0.01, 0.005, 0.005)",1,0,0,18,17,down,0.01,db,0.04903091571609854,0.0005986249998386484,51.54610120799953,51.54610120799953,51.845709749999514,1,1,245961,001,2022-09-08_20h05.55.594,exp.1,2022.2.4,59.98864726894722,
cont,0.05,"(0.01, 0.01, 0.005, 0.005)",1,0,0,19,18,down,0.01,db,0.048974499270434915,0.0005950419999862788,53.89542950000032,53.89542950000032,54.196048249999876,1,1,245961,001,2022-09-08_20h05.55.594,exp.1,2022.2.4,59.98864726894722,
cont,0.05,"(0.01, 0.01, 0.005, 0.005)",1,0,0,20,19,down,0.01,db,0.04891814773922974,0.0005882080004084855,56.380119874998854,56.380119874998854,56.679211167000176,1,1,245961,001,2022-09-08_20h05.55.594,exp.1,2022.2.4,59.98864726894722,
cont,0.05,"(0.01, 0.01, 0.005, 0.005)",1,0,0,21,20,down,0.01,db,0.0488618610477905,0.0006034159996488597,58.79671445799977,58.79671445799977,59.09589529199911,1,1,245961,001,2022-09-08_20h05.55.594,exp.1,2022.2.4,59.98864726894722,
cont,0.05,"(0.01, 0.01, 0.005, 0.005)",1,0,0,22,21,down,0.01,db,0.048805639121510605,0.0005883750000066357,61.7042442919992,61.7042442919992,62.01258370799951,1,1,245961,001,2022-09-08_20h05.55.594,exp.1,2022.2.4,59.98864726894722,
cont,0.05,"(0.01, 0.01, 0.005, 0.005)",1,0,0,23,22,down,0.01,db,0.04874948188586931,0.0007994589996087598,64.0957631250003,64.0957631250003,64.39644741699885,1,1,245961,001,2022-09-08_20h05.55.594,exp.1,2022.2.4,59.98864726894722,
cont,0.05,"(0.01, 0.01, 0.005, 0.005)",1,0,0,24,23,down,0.01,db,0.04869338926643163,0.000590916000874131,66.47948187499969,66.47948187499969,66.77906933299892,1,1,245961,001,2022-09-08_20h05.55.594,exp.1,2022.2.4,59.98864726894722,
cont,0.05,"(0.01, 0.01, 0.005, 0.005)",1,0,0,25,24,down,0.01,db,0.04863736118884821,0.0007489580002584262,68.81296408299931,68.81296408299931,69.1125533329996,1,1,245961,001,2022-09-08_20h05.55.594,exp.1,2022.2.4,59.98864726894722,
cont,0.05,"(0.01, 0.01, 0.005, 0.005)",1,0,0,26,25,down,0.01,db,0.04858139757885526,0.0007568749988422496,77.5636346249994,77.5636346249994,77.8794228329989,1,1,245961,001,2022-09-08_20h05.55.594,exp.1,2022.2.4,59.98864726894722,
cont,0.05,"(0.01, 0.01, 0.005, 0.005)",1,0,0,27,26,down,0.01,db,0.04852549836227443,0.0006057499995222315,80.27934520799863,80.27934520799863,80.57925533299931,0,0,245961,001,2022-09-08_20h05.55.594,exp.1,2022.2.4,59.98864726894722,
cont,0.05,"(0.01, 0.01, 0.005, 0.005)",1,0,0,28,27,up,0.01,db,0.04858139757885526,0.000623040999926161,82.96285766700021,82.96285766700021,83.26355549999971,1,1,245961,001,2022-09-08_20h05.55.594,exp.1,2022.2.4,59.98864726894722,
cont,0.05,"(0.01, 0.01, 0.005, 0.005)",1,0,0,29,28,up,0.01,db,0.04858139757885526,0.0006610839991481043,85.3959439579994,85.3959439579994,85.6960984999987,1,1,245961,001,2022-09-08_20h05.55.594,exp.1,2022.2.4,59.98864726894722,
cont,0.05,"(0.01, 0.01, 0.005, 0.005)",1,0,0,30,29,up,0.01,db,0.04858139757885526,0.0008117910001601558,87.84658349999881,87.84658349999881,88.14624224999898,1,1,245961,001,2022-09-08_20h05.55.594,exp.1,2022.2.4,59.98864726894722,
cont,0.05,"(0.01, 0.01, 0.005, 0.005)",1,0,0,31,30,down,0.005,db,0.048553439926021146,0.0006118330002209404,90.3136130419989,90.3136130419989,90.61281674999918,1,1,245961,001,2022-09-08_20h05.55.594,exp.1,2022.2.4,59.98864726894722,
cont,0.05,"(0.01, 0.01, 0.005, 0.005)",1,0,0,32,31,down,0.005,db,0.048553439926021146,0.0006109580008342164,92.74678312499964,92.74678312499964,93.04649979199894,1,1,245961,001,2022-09-08_20h05.55.594,exp.1,2022.2.4,59.98864726894722,
cont,0.05,"(0.01, 0.01, 0.005, 0.005)",1,0,0,33,32,down,0.005,db,0.048553439926021146,0.0007707500008109491,95.18017808299919,95.18017808299919,95.47965233299874,1,1,245961,001,2022-09-08_20h05.55.594,exp.1,2022.2.4,59.98864726894722,
cont,0.05,"(0.01, 0.01, 0.005, 0.005)",1,0,0,34,33,down,0.005,db,0.04852549836227444,0.0006038749997969717,97.59713945799922,97.59713945799922,97.89673687499999,1,1,245961,001,2022-09-08_20h05.55.594,exp.1,2022.2.4,59.98864726894722,
cont,0.05,"(0.01, 0.01, 0.005, 0.005)",1,0,0,35,34,down,0.005,db,0.04852549836227444,0.0006125419986346969,100.04646787499951,100.04646787499951,100.34645795799952,1,1,245961,001,2022-09-08_20h05.55.594,exp.1,2022.2.4,59.98864726894722,
cont,0.05,"(0.01, 0.01, 0.005, 0.005)",1,0,0,36,35,down,0.005,db,0.04852549836227444,0.0006082909985707374,102.42997204200037,102.42997204200037,102.72986808299902,1,1,245961,001,2022-09-08_20h05.55.594,exp.1,2022.2.4,59.98864726894722,
cont,0.05,"(0.01, 0.01, 0.005, 0.005)",1,0,0,37,36,down,0.005,db,0.04849757287835618,0.0007574999999633292,104.73067870799969,104.73067870799969,105.02970962499967,1,1,245961,001,2022-09-08_20h05.55.594,exp.1,2022.2.4,59.98864726894722,
cont,0.05,"(0.01, 0.01, 0.005, 0.005)",1,0,0,38,37,down,0.005,db,0.04849757287835618,0.0007702080001763534,107.17985512499945,107.17985512499945,107.48048387499875,1,1,245961,001,2022-09-08_20h05.55.594,exp.1,2022.2.4,59.98864726894722,
cont,0.05,"(0.01, 0.01, 0.005, 0.005)",1,0,0,39,38,down,0.005,db,0.04849757287835618,0.0007613329999003327,109.51352454199878,109.51352454199878,109.81303695799943,1,1,245961,001,2022-09-08_20h05.55.594,exp.1,2022.2.4,59.98864726894722,
cont,0.05,"(0.01, 0.01, 0.005, 0.005)",1,0,0,40,39,down,0.005,db,0.04846966346501274,0.00060033400040993,111.92990295799973,111.92990295799973,112.22949433299982,1,1,245961,001,2022-09-08_20h05.55.594,exp.1,2022.2.4,59.98864726894722,
cont,0.05,"(0.01, 0.01, 0.005, 0.005)",1,0,0,41,40,down,0.005,db,0.04846966346501274,0.0006008330001350259,114.36377674999858,114.36377674999858,114.66328799999974,1,1,245961,001,2022-09-08_20h05.55.594,exp.1,2022.2.4,59.98864726894722,
cont,0.05,"(0.01, 0.01, 0.005, 0.005)",1,0,0,42,41,down,0.005,db,0.04846966346501274,0.0007674999997107079,116.7471682079995,116.7471682079995,117.0463709579999,1,1,245961,001,2022-09-08_20h05.55.594,exp.1,2022.2.4,59.98864726894722,
cont,0.05,"(0.01, 0.01, 0.005, 0.005)",1,0,0,43,42,down,0.005,db,0.048441770112995816,0.0006077079997339752,119.11286904199915,119.11286904199915,119.41371733300002,1,1,245961,001,2022-09-08_20h05.55.594,exp.1,2022.2.4,59.98864726894722,
cont,0.05,"(0.01, 0.01, 0.005, 0.005)",1,0,0,44,43,down,0.005,db,0.048441770112995816,0.0006786670001019957,121.53015258300002,121.53015258300002,121.83009945799859,1,1,245961,001,2022-09-08_20h05.55.594,exp.1,2022.2.4,59.98864726894722,
cont,0.05,"(0.01, 0.01, 0.005, 0.005)",1,0,0,45,44,down,0.005,db,0.048441770112995816,0.0005940000010014046,123.92998758300018,123.92998758300018,124.23071216700009,1,1,245961,001,2022-09-08_20h05.55.594,exp.1,2022.2.4,59.98864726894722,
cont,0.05,"(0.01, 0.01, 0.005, 0.005)",1,0,0,46,45,down,0.005,db,0.04841389281306242,0.0007852500002627494,126.78072858300038,126.78072858300038,127.07991687499998,1,1,245961,001,2022-09-08_20h05.55.594,exp.1,2022.2.4,59.98864726894722,
cont,0.05,"(0.01, 0.01, 0.005, 0.005)",1,0,0,47,46,down,0.005,db,0.04841389281306242,0.000759583999752067,129.26335516699874,129.26335516699874,129.56316408299972,1,1,245961,001,2022-09-08_20h05.55.594,exp.1,2022.2.4,59.98864726894722,
cont,0.05,"(0.01, 0.01, 0.005, 0.005)",1,0,0,48,47,down,0.005,db,0.04841389281306242,0.0005989170003886102,131.91302912500032,131.91302912500032,132.21329266700013,1,1,245961,001,2022-09-08_20h05.55.594,exp.1,2022.2.4,59.98864726894722,
cont,0.05,"(0.01, 0.01, 0.005, 0.005)",1,0,0,49,48,down,0.005,db,0.0483860315559749,0.0006028749994584359,134.43069029199978,134.43069029199978,134.73021108299872,1,1,245961,001,2022-09-08_20h05.55.594,exp.1,2022.2.4,59.98864726894722,
cont,0.05,"(0.01, 0.01, 0.005, 0.005)",1,0,0,50,49,down,0.005,db,0.0483860315559749,0.0006153329995868262,137.096542416999,137.096542416999,137.39666408300036,1,1,245961,001,2022-09-08_20h05.55.594,exp.1,2022.2.4,59.98864726894722,
cont,0.05,"(0.01, 0.01, 0.005, 0.005)",1,0,0,51,50,down,0.005,db,0.0483860315559749,0.0006144590006442741,139.63076745800026,139.63076745800026,139.92985704199964,1,1,245961,001,2022-09-08_20h05.55.594,exp.1,2022.2.4,59.98864726894722,
cont,0.05,"(0.01, 0.01, 0.005, 0.005)",1,0,0,52,51,down,0.005,db,0.0483581863325009,0.0006013340007484658,142.12994004199936,142.12994004199936,142.43080216700037,1,1,245961,001,2022-09-08_20h05.55.594,exp.1,2022.2.4,59.98864726894722,
cont,0.05,"(0.01, 0.01, 0.005, 0.005)",1,0,0,53,52,down,0.005,db,0.0483581863325009,0.0006006670009810477,144.54746016699937,144.54746016699937,144.8466213749998,1,1,245961,001,2022-09-08_20h05.55.594,exp.1,2022.2.4,59.98864726894722,
cont,0.05,"(0.01, 0.01, 0.005, 0.005)",1,0,0,54,53,down,0.005,db,0.0483581863325009,0.0006314999991445802,146.94727183299983,146.94727183299983,147.24680162499862,1,1,245961,001,2022-09-08_20h05.55.594,exp.1,2022.2.4,59.98864726894722,
cont,0.05,"(0.01, 0.01, 0.005, 0.005)",1,0,0,55,54,down,0.005,db,0.04833035713341339,0.0007606670005770866,149.51413799999864,149.51413799999864,149.8141568329993,1,1,245961,001,2022-09-08_20h05.55.594,exp.1,2022.2.4,59.98864726894722,
cont,0.05,"(0.01, 0.01, 0.005, 0.005)",1,0,0,56,55,down,0.005,db,0.04833035713341339,0.0006364159999066032,153.61360391699964,153.61360391699964,153.91331075000016,1,1,245961,001,2022-09-08_20h05.55.594,exp.1,2022.2.4,59.98864726894722,
cont,0.05,"(0.01, 0.01, 0.005, 0.005)",1,0,0,57,56,down,0.005,db,0.04833035713341339,0.0009277919998567086,156.09722245800003,156.09722245800003,156.39746429200022,1,1,245961,001,2022-09-08_20h05.55.594,exp.1,2022.2.4,59.98864726894722,
cont,0.05,"(0.01, 0.01, 0.005, 0.005)",1,0,0,58,57,down,0.005,db,0.04830254394949064,0.0007493339999200543,158.49660724999922,158.49660724999922,158.7968629579991,1,1,245961,001,2022-09-08_20h05.55.594,exp.1,2022.2.4,59.98864726894722,
cont,0.05,"(0.01, 0.01, 0.005, 0.005)",1,0,0,59,58,down,0.005,db,0.04830254394949064,0.000706832999640028,160.98036775000037,160.98036775000037,161.2802699169988,1,1,245961,001,2022-09-08_20h05.55.594,exp.1,2022.2.4,59.98864726894722,
cont,0.05,"(0.01, 0.01, 0.005, 0.005)",1,0,0,60,59,down,0.005,db,0.04830254394949064,0.0007768750001559965,163.5467801249997,163.5467801249997,163.84727033299896,1,1,245961,001,2022-09-08_20h05.55.594,exp.1,2022.2.4,59.98864726894722,
cont,0.05,"(0.01, 0.01, 0.005, 0.005)",1,0,0,61,60,down,0.005,db,0.04827474677151625,0.0005986249998386484,165.93102133299908,165.93102133299908,166.23021129199878,1,1,245961,001,2022-09-08_20h05.55.594,exp.1,2022.2.4,59.98864726894722,
cont,0.05,"(0.01, 0.01, 0.005, 0.005)",1,0,0,62,61,down,0.005,db,0.04827474677151625,0.000609124999755295,168.43096954199973,168.43096954199973,168.72998579199884,1,1,245961,001,2022-09-08_20h05.55.594,exp.1,2022.2.4,59.98864726894722,
cont,0.05,"(0.01, 0.01, 0.005, 0.005)",1,0,0,63,62,down,0.005,db,0.04827474677151625,0.0005978329991194187,170.79744124999888,170.79744124999888,171.09711779200006,1,1,245961,001,2022-09-08_20h05.55.594,exp.1,2022.2.4,59.98864726894722,
cont,0.05,"(0.01, 0.01, 0.005, 0.005)",1,0,0,64,63,down,0.005,db,0.048246965590279085,0.0006328750005195616,173.2143183749995,173.2143183749995,173.51419112499934,1,1,245961,001,2022-09-08_20h05.55.594,exp.1,2022.2.4,59.98864726894722,
cont,0.05,"(0.01, 0.01, 0.005, 0.005)",1,0,0,65,64,down,0.005,db,0.048246965590279085,0.0006547499997395789,175.64693595799872,175.64693595799872,175.94727624999905,1,1,245961,001,2022-09-08_20h05.55.594,exp.1,2022.2.4,59.98864726894722,
cont,0.05,"(0.01, 0.01, 0.005, 0.005)",1,0,0,66,65,down,0.005,db,0.048246965590279085,0.0005109170015202835,178.06375424999896,178.06375424999896,178.3637244169986,1,1,245961,001,2022-09-08_20h05.55.594,exp.1,2022.2.4,59.98864726894722,
cont,0.05,"(0.01, 0.01, 0.005, 0.005)",1,0,0,67,66,down,0.005,db,0.04821920039657335,0.0007802079999237321,180.4971427499986,180.4971427499986,180.79751437499908,1,1,245961,001,2022-09-08_20h05.55.594,exp.1,2022.2.4,59.98864726894722,
cont,0.05,"(0.01, 0.01, 0.005, 0.005)",1,0,0,68,67,down,0.005,db,0.04821920039657335,0.000794167001004098,182.91360008300035,182.91360008300035,183.213895375,1,1,245961,001,2022-09-08_20h05.55.594,exp.1,2022.2.4,59.98864726894722,
cont,0.05,"(0.01, 0.01, 0.005, 0.005)",1,0,0,69,68,down,0.005,db,0.04821920039657335,0.0007556670007033972,185.33065566699952,185.33065566699952,185.63052029199935,1,1,245961,001,2022-09-08_20h05.55.594,exp.1,2022.2.4,59.98864726894722,
cont,0.05,"(0.01, 0.01, 0.005, 0.005)",1,0,0,70,69,down,0.005,db,0.04819145118119852,0.0006010419983795146,187.68104058300014,187.68104058300014,187.98038795799948,1,1,245961,001,2022-09-08_20h05.55.594,exp.1,2022.2.4,59.98864726894722,
cont,0.05,"(0.01, 0.01, 0.005, 0.005)",1,0,0,71,70,down,0.005,db,0.04819145118119852,0.0006184169997140998,190.09866599999987,190.09866599999987,190.39701816699926,1,1,245961,001,2022-09-08_20h05.55.594,exp.1,2022.2.4,59.98864726894722,
cont,0.05,"(0.01, 0.01, 0.005, 0.005)",1,0,0,72,71,down,0.005,db,0.04819145118119852,0.0008109170012176037,192.5805955830001,192.5805955830001,192.8804867079998,1,1,245961,001,2022-09-08_20h05.55.594,exp.1,2022.2.4,59.98864726894722,
cont,0.05,"(0.01, 0.01, 0.005, 0.005)",1,0,0,73,72,down,0.005,db,0.048163717934959376,0.0006947910005692393,194.9641615419987,194.9641615419987,195.26411229199948,1,1,245961,001,2022-09-08_20h05.55.594,exp.1,2022.2.4,59.98864726894722,
cont,0.05,"(0.01, 0.01, 0.005, 0.005)",1,0,0,74,73,down,0.005,db,0.048163717934959376,0.0007710000008955831,197.34739895799976,197.34739895799976,197.64731004199894,1,1,245961,001,2022-09-08_20h05.55.594,exp.1,2022.2.4,59.98864726894722,
cont,0.05,"(0.01, 0.01, 0.005, 0.005)",1,0,0,75,74,down,0.005,db,0.048163717934959376,0.0006297090003499761,199.81379295799888,199.81379295799888,200.11376245799875,1,1,245961,001,2022-09-08_20h05.55.594,exp.1,2022.2.4,59.98864726894722,
cont,0.05,"(0.01, 0.01, 0.005, 0.005)",1,0,0,76,75,down,0.005,db,0.048136000648665994,0.0006320840002445038,202.1973864169995,202.1973864169995,202.49722524999925,1,1,245961,001,2022-09-08_20h05.55.594,exp.1,2022.2.4,59.98864726894722,
cont,0.05,"(0.01, 0.01, 0.005, 0.005)",1,0,0,77,76,down,0.005,db,0.048136000648665994,0.0007397080007649492,204.61451229199884,204.61451229199884,204.91467849999935,1,1,245961,001,2022-09-08_20h05.55.594,exp.1,2022.2.4,59.98864726894722,
cont,0.05,"(0.01, 0.01, 0.005, 0.005)",1,0,0,78,77,down,0.005,db,0.048136000648665994,0.0006053750003047753,207.11468187500031,207.11468187500031,207.41384495799866,1,1,245961,001,2022-09-08_20h05.55.594,exp.1,2022.2.4,59.98864726894722,
cont,0.05,"(0.01, 0.01, 0.005, 0.005)",1,0,0,79,78,down,0.005,db,0.048108299313133734,0.0005966670014458941,209.48038520800037,209.48038520800037,209.78069637499902,1,1,245961,001,2022-09-08_20h05.55.594,exp.1,2022.2.4,59.98864726894722,
cont,0.05,"(0.01, 0.01, 0.005, 0.005)",1,0,0,80,79,down,0.005,db,0.048108299313133734,0.0006050829997548135,211.913999082999,211.913999082999,212.21388549999938,1,1,245961,001,2022-09-08_20h05.55.594,exp.1,2022.2.4,59.98864726894722,
cont,0.05,"(0.01, 0.01, 0.005, 0.005)",1,0,0,81,80,down,0.005,db,0.048108299313133734,0.0006008749987813644,214.3306647499994,214.3306647499994,214.63070679199882,1,1,245961,001,2022-09-08_20h05.55.594,exp.1,2022.2.4,59.98864726894722,
cont,0.05,"(0.01, 0.01, 0.005, 0.005)",1,0,0,82,81,down,0.005,db,0.04808061391918324,0.0005981670001347084,216.74834929200006,216.74834929200006,217.04750912499912,1,1,245961,001,2022-09-08_20h05.55.594,exp.1,2022.2.4,59.98864726894722,
cont,0.05,"(0.01, 0.01, 0.005, 0.005)",1,0,0,83,82,down,0.005,db,0.04808061391918324,0.0007420000001729932,219.0973683329994,219.0973683329994,219.39740987499863,1,1,245961,001,2022-09-08_20h05.55.594,exp.1,2022.2.4,59.98864726894722,
cont,0.05,"(0.01, 0.01, 0.005, 0.005)",1,0,0,84,83,down,0.005,db,0.04808061391918324,0.0007029999997030245,221.4317185,221.4317185,221.73076245799894,1,1,245961,001,2022-09-08_20h05.55.594,exp.1,2022.2.4,59.98864726894722,
cont,0.05,"(0.01, 0.01, 0.005, 0.005)",1,0,0,85,84,down,0.005,db,0.04805294445764044,0.0007576669995614793,223.79746266700022,223.79746266700022,224.09726124999906,1,1,245961,001,2022-09-08_20h05.55.594,exp.1,2022.2.4,59.98864726894722,
cont,0.05,"(0.01, 0.01, 0.005, 0.005)",1,0,0,86,85,down,0.005,db,0.04805294445764044,0.0005966669996269047,226.24827683299918,226.24827683299918,226.5475606250002,1,1,245961,001,2022-09-08_20h05.55.594,exp.1,2022.2.4,59.98864726894722,
cont,0.05,"(0.01, 0.01, 0.005, 0.005)",1,0,0,87,86,down,0.005,db,0.04805294445764044,0.0006163750003906898,228.6307081670002,228.6307081670002,228.9306530419999,1,1,245961,001,2022-09-08_20h05.55.594,exp.1,2022.2.4,59.98864726894722,
cont,0.05,"(0.01, 0.01, 0.005, 0.005)",1,0,0,88,87,down,0.005,db,0.04802529091933654,0.0006109999994805548,231.0309321249988,231.0309321249988,231.331184749999,1,1,245961,001,2022-09-08_20h05.55.594,exp.1,2022.2.4,59.98864726894722,
cont,0.05,"(0.01, 0.01, 0.005, 0.005)",1,0,0,89,88,down,0.005,db,0.04802529091933654,0.0006537080007547047,233.46494387500024,233.46494387500024,233.76414399999885,1,1,245961,001,2022-09-08_20h05.55.594,exp.1,2022.2.4,59.98864726894722,
cont,0.05,"(0.01, 0.01, 0.005, 0.005)",1,0,0,90,89,down,0.005,db,0.04802529091933654,0.0007657499991182704,235.83098324999992,235.83098324999992,236.13066595799864,1,1,245961,001,2022-09-08_20h05.55.594,exp.1,2022.2.4,59.98864726894722,
cont,0.05,"(0.01, 0.01, 0.005, 0.005)",1,0,0,91,90,down,0.005,db,0.047997653295108036,0.0005887919996894198,238.19818962499994,238.19818962499994,238.49773379199905,1,1,245961,001,2022-09-08_20h05.55.594,exp.1,2022.2.4,59.98864726894722,
cont,0.05,"(0.01, 0.01, 0.005, 0.005)",1,0,0,92,91,down,0.005,db,0.047997653295108036,0.0007551670005341293,240.53158533299938,240.53158533299938,240.83101483300015,1,1,245961,001,2022-09-08_20h05.55.594,exp.1,2022.2.4,59.98864726894722,
cont,0.05,"(0.01, 0.01, 0.005, 0.005)",1,0,0,93,92,down,0.005,db,0.047997653295108036,0.0006116250006016344,242.88132245799898,242.88132245799898,243.18106041699866,1,1,245961,001,2022-09-08_20h05.55.594,exp.1,2022.2.4,59.98864726894722,
cont,0.05,"(0.01, 0.01, 0.005, 0.005)",1,0,0,94,93,down,0.005,db,0.04797003157579668,0.000744332999602193,245.24775695799872,245.24775695799872,245.54779749999943,1,1,245961,001,2022-09-08_20h05.55.594,exp.1,2022.2.4,59.98864726894722,
cont,0.05,"(0.01, 0.01, 0.005, 0.005)",1,0,0,95,94,down,0.005,db,0.04797003157579668,0.0006093749998399289,247.74763045799955,247.74763045799955,248.04814562499996,1,1,245961,001,2022-09-08_20h05.55.594,exp.1,2022.2.4,59.98864726894722,
cont,0.05,"(0.01, 0.01, 0.005, 0.005)",1,0,0,96,95,down,0.005,db,0.04797003157579668,0.0007620830001542345,250.11762508299944,250.11762508299944,250.4312623329988,1,1,245961,001,2022-09-08_20h05.55.594,exp.1,2022.2.4,59.98864726894722,
cont,0.05,"(0.01, 0.01, 0.005, 0.005)",1,0,0,97,96,down,0.005,db,0.04794242575224949,0.0006273330000112765,252.46509329199944,252.46509329199944,252.7649436669999,1,1,245961,001,2022-09-08_20h05.55.594,exp.1,2022.2.4,59.98864726894722,
cont,0.05,"(0.01, 0.01, 0.005, 0.005)",1,0,0,98,97,down,0.005,db,0.04794242575224949,0.0006941669998923317,254.897744124999,254.897744124999,255.19774558300014,1,1,245961,001,2022-09-08_20h05.55.594,exp.1,2022.2.4,59.98864726894722,
cont,0.05,"(0.01, 0.01, 0.005, 0.005)",1,0,0,99,98,down,0.005,db,0.04794242575224949,0.0006074160010030027,257.3145290829998,257.3145290829998,257.6149882919999,1,1,245961,001,2022-09-08_20h05.55.594,exp.1,2022.2.4,59.98864726894722,
cont,0.05,"(0.01, 0.01, 0.005, 0.005)",1,0,0,100,99,down,0.005,db,0.047914835815318774,0.0007582910002383869,259.68092929199884,259.68092929199884,259.981281458,1,1,245961,001,2022-09-08_20h05.55.594,exp.1,2022.2.4,59.98864726894722,
cont,0.05,"(0.01, 0.01, 0.005, 0.005)",1,0,0,101,100,down,0.005,db,0.047914835815318774,0.0007721659985691076,262.0477100829994,262.0477100829994,,1,1,245961,001,2022-09-08_20h05.55.594,exp.1,2022.2.4,59.98864726894722,
cont,0.05,"(0.01, 0.01, 0.005, 0.005)",1,0,0,102,101,down,0.005,db,0.047914835815318774,0.0006081249994167592,264.23122791700007,264.23122791700007,264.531268499999,1,1,245961,001,2022-09-08_20h05.55.594,exp.1,2022.2.4,59.98864726894722,
cont,0.05,"(0.01, 0.01, 0.005, 0.005)",1,0,0,103,102,down,0.005,db,0.04788726175586209,0.0006074579996493412,266.68171833299857,266.68171833299857,266.9817321669998,1,1,245961,001,2022-09-08_20h05.55.594,exp.1,2022.2.4,59.98864726894722,
cont,0.05,"(0.01, 0.01, 0.005, 0.005)",1,0,0,104,103,down,0.005,db,0.04788726175586209,0.0006164999995235121,269.1812118750004,269.1812118750004,269.48102695799935,1,1,245961,001,2022-09-08_20h05.55.594,exp.1,2022.2.4,59.98864726894722,
cont,0.05,"(0.01, 0.01, 0.005, 0.005)",1,0,0,105,104,down,0.005,db,0.04788726175586209,0.0007469170013791882,271.63200479199986,271.63200479199986,271.93101362499874,1,1,245961,001,2022-09-08_20h05.55.594,exp.1,2022.2.4,59.98864726894722,
cont,0.05,"(0.01, 0.01, 0.005, 0.005)",1,0,0,106,105,down,0.005,db,0.047859703564742256,0.0006130000001576263,274.0145840419991,274.0145840419991,274.3144563749993,1,1,245961,001,2022-09-08_20h05.55.594,exp.1,2022.2.4,59.98864726894722,
cont,0.05,"(0.01, 0.01, 0.005, 0.005)",1,0,0,107,106,down,0.005,db,0.047859703564742256,0.000759624999773223,276.5315203749997,276.5315203749997,276.8312376670001,1,1,245961,001,2022-09-08_20h05.55.594,exp.1,2022.2.4,59.98864726894722,
cont,0.05,"(0.01, 0.01, 0.005, 0.005)",1,0,0,108,107,down,0.005,db,0.047859703564742256,0.0007164170001487946,278.89789824999934,278.89789824999934,279.1983743330002,1,1,245961,001,2022-09-08_20h05.55.594,exp.1,2022.2.4,59.98864726894722,
cont,0.05,"(0.01, 0.01, 0.005, 0.005)",1,0,0,109,108,down,0.005,db,0.04783216123282735,0.0007541249997302657,281.2482491669998,281.2482491669998,281.54797891700036,1,1,245961,001,2022-09-08_20h05.55.594,exp.1,2022.2.4,59.98864726894722,
cont,0.05,"(0.01, 0.01, 0.005, 0.005)",1,0,0,110,109,down,0.005,db,0.04783216123282735,0.000595208999584429,283.58147841699974,283.58147841699974,283.8814278329992,1,1,245961,001,2022-09-08_20h05.55.594,exp.1,2022.2.4,59.98864726894722,
cont,0.05,"(0.01, 0.01, 0.005, 0.005)",1,0,0,111,110,down,0.005,db,0.04783216123282735,0.0006085419990995433,285.98174854199897,285.98174854199897,286.281579167,1,1,245961,001,2022-09-08_20h05.55.594,exp.1,2022.2.4,59.98864726894722,
cont,0.05,"(0.01, 0.01, 0.005, 0.005)",1,0,0,112,111,down,0.005,db,0.04780463475099071,0.0007455830000253627,288.4820817079999,288.4820817079999,288.78201120799895,1,1,245961,001,2022-09-08_20h05.55.594,exp.1,2022.2.4,59.98864726894722,
cont,0.05,"(0.01, 0.01, 0.005, 0.005)",1,0,0,113,112,down,0.005,db,0.04780463475099071,0.0006455420007114299,290.94914487499955,290.94914487499955,291.26478833299916,1,1,245961,001,2022-09-08_20h05.55.594,exp.1,2022.2.4,59.98864726894722,
cont,0.05,"(0.01, 0.01, 0.005, 0.005)",1,0,0,114,113,down,0.005,db,0.04780463475099071,0.0007739159991615452,293.4991085829988,293.4991085829988,293.7990784579997,1,1,245961,001,2022-09-08_20h05.55.594,exp.1,2022.2.4,59.98864726894722,
cont,0.05,"(0.01, 0.01, 0.005, 0.005)",1,0,0,115,114,down,0.005,db,0.04777712411011093,0.0006801660001656273,296.1992018330002,296.1992018330002,296.51527241700023,1,1,245961,001,2022-09-08_20h05.55.594,exp.1,2022.2.4,59.98864726894722,
cont,0.05,"(0.01, 0.01, 0.005, 0.005)",1,0,0,116,115,down,0.005,db,0.04777712411011093,0.0006105000011302764,298.647928417,298.647928417,298.9481362919996,1,1,245961,001,2022-09-08_20h05.55.594,exp.1,2022.2.4,59.98864726894722,
cont,0.05,"(0.01, 0.01, 0.005, 0.005)",1,0,0,117,116,down,0.005,db,0.04777712411011093,0.0006092499988881173,301.0648657919992,301.0648657919992,301.3646655829998,0,0,245961,001,2022-09-08_20h05.55.594,exp.1,2022.2.4,59.98864726894722,
cont,0.05,"(0.01, 0.01, 0.005, 0.005)",1,0,0,118,117,up,0.005,db,0.04780463475099071,0.0006160409993754001,303.5982506250002,303.5982506250002,303.89816812499885,1,1,245961,001,2022-09-08_20h05.55.594,exp.1,2022.2.4,59.98864726894722,
cont,0.05,"(0.01, 0.01, 0.005, 0.005)",1,0,0,119,118,up,0.005,db,0.04780463475099071,0.0006025000002409797,306.03199866700015,306.03199866700015,306.3316687079987,1,1,245961,001,2022-09-08_20h05.55.594,exp.1,2022.2.4,59.98864726894722,
cont,0.05,"(0.01, 0.01, 0.005, 0.005)",1,0,0,120,119,up,0.005,db,0.04780463475099071,0.0006190420008351794,308.59846212499906,308.59846212499906,308.89851754200026,1,1,245961,001,2022-09-08_20h05.55.594,exp.1,2022.2.4,59.98864726894722,
